Folder: DataAnalyticsOR/Assignment 1/163190013_Assignment1/Regression Code

Note: Readme.txt
Folder for Data Analytics for OR course. Contains assignments and project.

File: Regression_TRAIN.csv
Cement (component 1)(kg in a m^3 mixture),Blast Furnace Slag (component 2)(kg in a m^3 mixture),Fly Ash (component 3)(kg in a m^3 mixture),Water  (component 4)(kg in a m^3 mixture),Superplasticizer (component 5)(kg in a m^3 mixture),Coarse Aggregate  (component 6)(kg in a m^3 mixture),Fine Aggregate (component 7)(kg in a m^3 mixture),Age (day),"Concrete compressive strength(MPa, megapascals) "
446.0,24.0,79.0,162.0,11.6,967.0,712.0,7,52.01
287.0,121.0,94.0,188.0,9.0,904.0,696.0,28,41.94
525.0,0.0,0.0,189.0,0.0,1125.0,613.0,3,33.8
359.0,19.0,141.0,154.0,10.9,942.0,801.0,28,59.49
500.0,0.0,0.0,200.0,0.0,1125.0,613.0,7,33.21
525.0,0.0,0.0,189.0,0.0,1125.0,613.0,270,67.11
491.0,26.0,123.0,201.0,3.9,822.0,699.0,56,61.86
500.1,0.0,0.0,200.0,3.0,1124.4,613.2,28,44.13
339.0,0.0,0.0,185.0,0.0,1069.0,754.0,28,31.84
165.0,0.0,150.0,182.0,12.0,1023.0,729.0,28,18.03
525.0,0.0,0.0,189.0,0.0,1125.0,613.0,28,55.94
192.0,288.0,0.0,192.0,0.0,929.8,716.1,7,21.48
424.0,22.0,132.0,178.0,8.5,882.0,750.0,3,32.01
238.1,0.0,94.1,186.7,7.0,949.9,847.0,100,44.3
337.9,189.0,0.0,174.9,9.5,944.7,755.8,28,49.9
295.7,0.0,95.6,171.5,8.9,955.1,859.2,3,22.95
296.0,0.0,0.0,186.0,0.0,1090.0,769.0,28,25.18
193.5,290.2,0.0,185.7,0.0,998.2,704.3,7,17.2
297.0,0.0,0.0,186.0,0.0,1040.0,734.0,7,30.96
516.0,0.0,0.0,162.0,8.2,801.0,802.0,28,41.37
212.0,141.3,0.0,203.5,0.0,973.4,750.0,7,15.03
183.9,122.6,0.0,203.5,0.0,959.2,800.0,7,10.79
173.8,93.4,159.9,172.3,9.7,1007.2,746.6,56,48.99
401.8,94.7,0.0,147.4,11.4,946.8,852.1,91,75.5
362.6,189.0,0.0,164.9,11.6,944.7,755.8,7,55.9
424.0,22.0,132.0,178.0,8.5,822.0,750.0,7,39.0
313.3,145.0,0.0,178.5,8.0,867.2,824.0,28,40.93
181.4,0.0,167.0,169.6,7.6,1055.6,777.8,28,27.77
290.4,0.0,96.2,168.1,9.4,961.2,865.0,3,22.5
214.9,53.8,121.9,155.6,9.6,1014.3,780.6,14,38.6
305.3,203.5,0.0,203.5,0.0,965.4,631.0,90,54.6
200.0,133.0,0.0,192.0,0.0,965.4,806.2,7,17.17
300.0,0.0,120.0,212.0,10.0,878.0,728.0,28,23.84
160.2,188.0,146.4,203.2,11.3,828.7,709.7,28,35.31
446.0,24.0,79.0,162.0,11.6,967.0,712.0,3,35.36
296.0,0.0,0.0,192.0,0.0,1085.0,765.0,90,29.39
151.8,178.1,138.7,167.5,18.3,944.0,694.6,28,36.35
133.0,200.0,0.0,192.0,0.0,927.4,839.2,7,13.66
333.0,0.0,0.0,192.0,0.0,931.2,842.6,7,23.4
475.0,0.0,0.0,228.0,0.0,932.0,594.0,28,39.29
475.0,0.0,0.0,162.0,9.5,1044.0,662.0,28,58.52
379.5,151.2,0.0,153.9,15.9,1134.3,605.0,56,54.9
540.0,0.0,0.0,173.0,0.0,1125.0,613.0,180,71.62
133.0,200.0,0.0,192.0,0.0,927.4,839.2,3,6.88
238.1,0.0,94.1,186.7,7.0,949.9,847.0,14,25.69
250.0,0.0,95.7,187.4,5.5,956.9,861.2,28,29.22
310.0,0.0,0.0,192.0,0.0,970.0,850.0,7,14.99
322.0,0.0,116.0,196.0,10.0,818.0,813.0,28,31.18
233.8,0.0,94.6,197.9,4.6,947.0,852.2,28,22.84
153.1,145.0,113.0,178.5,8.0,867.2,824.0,28,26.23
168.0,42.1,163.8,121.8,5.7,1058.7,780.1,100,39.23
160.0,128.0,122.0,182.0,6.4,824.0,879.0,28,39.4
167.4,129.9,128.6,175.5,7.8,1006.3,746.6,3,14.94
266.0,114.0,0.0,228.0,0.0,932.0,670.0,365,52.91
540.0,0.0,0.0,173.0,0.0,1125.0,613.0,28,67.31
218.2,54.6,123.8,140.8,11.9,1075.7,792.7,56,61.99
212.0,0.0,124.8,159.0,7.8,1085.4,799.5,100,47.82
213.8,98.1,24.5,181.7,6.7,1066.0,785.5,28,40.23
213.5,0.0,174.2,159.2,11.7,1043.6,771.9,28,44.64
251.8,0.0,99.9,146.1,12.4,1006.0,899.8,56,44.14
500.0,0.0,0.0,151.0,9.0,1033.0,655.0,28,69.84
307.0,0.0,0.0,193.0,0.0,968.0,812.0,28,27.53
284.0,119.7,0.0,168.3,7.2,970.4,794.2,28,40.93
287.3,120.5,93.9,187.6,9.2,904.4,695.9,28,43.8
167.0,75.4,167.0,164.0,7.9,1007.3,770.1,28,41.41
266.0,112.0,87.0,178.0,10.0,910.0,745.0,28,39.42
231.8,0.0,121.6,174.0,6.7,1056.4,778.5,14,26.77
190.3,0.0,125.2,166.6,9.9,1079.0,798.9,56,31.72
214.9,53.8,121.9,155.6,9.6,1014.3,780.6,28,52.2
337.9,189.0,0.0,174.9,9.5,944.7,755.8,91,67.8
237.5,237.5,0.0,228.0,0.0,932.0,594.0,365,39.0
190.3,0.0,125.2,161.9,9.9,1088.1,802.6,100,40.39
475.0,0.0,0.0,228.0,0.0,932.0,594.0,90,42.23
190.0,190.0,0.0,228.0,0.0,932.0,670.0,180,46.93
255.5,170.3,0.0,185.7,0.0,1026.6,724.3,7,17.24
122.6,183.9,0.0,203.5,0.0,958.2,800.1,90,33.19
181.4,0.0,167.0,169.6,7.6,1055.6,777.8,14,21.6
296.0,0.0,107.0,221.0,11.0,819.0,778.0,28,31.42
159.0,209.0,161.0,201.0,7.0,848.0,669.0,28,30.88
151.0,0.0,185.0,167.0,16.0,1074.0,678.0,28,13.46
425.0,106.3,0.0,151.4,18.6,936.0,803.7,7,46.8
173.8,93.4,159.9,172.3,9.7,1007.2,746.6,100,50.94
388.6,97.1,0.0,157.9,12.1,852.1,925.7,3,28.1
281.0,0.0,0.0,186.0,0.0,1104.0,774.0,7,14.5
203.5,305.3,0.0,203.5,0.0,963.4,630.0,28,41.68
313.3,262.2,0.0,175.5,8.6,1046.9,611.8,28,59.8
236.0,0.0,0.0,194.0,0.0,968.0,885.0,3,6.47
475.0,0.0,0.0,228.0,0.0,932.0,594.0,7,38.6
362.6,189.0,0.0,164.9,11.6,944.7,755.8,7,55.9
108.3,162.4,0.0,203.5,0.0,938.2,849.0,7,7.72
252.1,97.1,75.6,193.8,8.3,835.5,821.4,28,33.4
295.7,0.0,95.6,171.5,8.9,955.1,859.2,14,35.23
194.7,0.0,100.5,170.2,7.5,998.0,901.8,100,44.28
284.0,120.0,0.0,168.0,7.0,970.0,794.0,28,40.93
149.0,236.0,0.0,176.0,13.0,847.0,893.0,28,32.96
212.1,0.0,121.6,180.3,5.7,1057.6,779.3,56,34.2
309.9,142.8,111.2,167.8,22.1,913.9,651.2,28,38.22
362.6,189.0,0.0,164.9,11.6,944.7,755.8,28,71.3
331.0,0.0,0.0,192.0,0.0,978.0,825.0,90,37.23
393.0,0.0,0.0,192.0,0.0,940.6,785.6,7,27.74
218.2,54.6,123.8,140.8,11.9,1075.7,792.7,3,27.42
382.0,0.0,0.0,186.0,0.0,1111.0,784.0,7,11.47
157.0,214.0,152.0,200.0,9.0,819.0,704.0,28,33.05
439.0,177.0,0.0,186.0,11.1,884.9,707.9,7,56.1
275.1,0.0,121.4,159.5,9.9,1053.6,777.5,28,51.33
405.0,0.0,0.0,175.0,0.0,1120.0,695.0,28,52.3
238.1,0.0,0.0,185.7,0.0,1118.8,789.3,28,17.58
141.3,212.0,0.0,203.5,0.0,971.8,748.5,7,10.39
200.0,0.0,0.0,180.0,0.0,1125.0,845.0,28,12.25
439.0,177.0,0.0,186.0,11.1,884.9,707.9,56,71.7
480.0,0.0,0.0,192.0,0.0,936.2,712.2,3,24.4
203.5,135.7,0.0,185.7,0.0,1076.2,759.3,7,11.96
272.6,0.0,89.6,198.7,10.6,931.3,762.2,28,32.25
540.0,0.0,0.0,173.0,0.0,1125.0,613.0,90,69.66
331.0,0.0,0.0,192.0,0.0,978.0,825.0,360,41.24
388.6,97.1,0.0,157.9,12.1,852.1,925.7,7,34.9
299.8,0.0,119.8,211.5,9.9,878.2,727.6,28,23.84
178.0,129.8,118.6,179.9,3.6,1007.3,746.8,100,49.99
218.9,0.0,124.1,158.5,11.3,1078.7,794.9,3,15.34
380.0,95.0,0.0,228.0,0.0,932.0,594.0,270,41.15
284.0,15.0,141.0,179.0,5.5,842.0,801.0,7,24.13
165.0,0.0,143.6,163.8,0.0,1005.6,900.9,3,14.4
218.9,0.0,124.1,158.5,11.3,1078.7,794.9,100,46.23
260.9,100.5,78.3,200.6,8.6,864.5,761.5,28,32.4
366.0,187.0,0.0,191.0,7.0,824.0,757.0,28,65.91
380.0,95.0,0.0,228.0,0.0,932.0,594.0,90,40.56
397.0,0.0,0.0,186.0,0.0,1040.0,734.0,28,36.94
154.0,174.0,185.0,228.0,7.0,845.0,612.0,28,24.34
312.7,144.7,0.0,127.3,8.0,999.7,822.2,28,44.52
385.0,0.0,136.0,158.0,20.0,903.0,768.0,28,55.55
475.0,118.8,0.0,181.1,8.9,852.1,781.5,7,55.6
166.0,260.0,0.0,183.0,13.0,859.0,827.0,28,37.91
388.6,97.1,0.0,157.9,12.1,852.1,925.7,28,50.7
313.0,145.0,0.0,178.0,8.0,867.0,824.0,28,44.39
322.0,0.0,0.0,203.0,0.0,974.0,800.0,14,20.77
375.0,93.8,0.0,126.6,23.4,852.1,992.6,3,29.0
252.0,0.0,0.0,185.0,0.0,1111.0,784.0,28,19.69
155.6,243.5,0.0,180.3,10.7,1022.0,697.7,28,37.36
349.0,0.0,0.0,192.0,0.0,1047.0,806.0,3,14.99
288.0,192.0,0.0,192.0,0.0,932.0,717.8,90,50.53
183.9,122.6,0.0,203.5,0.0,959.2,800.0,28,24.05
212.5,0.0,100.4,159.3,8.7,1007.8,903.6,100,42.92
155.0,183.0,0.0,193.0,9.0,1047.0,697.0,28,18.28
374.0,189.2,0.0,170.1,10.1,926.1,756.7,91,64.9
153.6,144.2,112.3,220.1,10.1,923.2,657.9,28,16.5
305.3,203.5,0.0,203.5,0.0,965.4,631.0,3,14.14
252.3,0.0,98.8,146.3,14.2,987.8,889.0,28,50.6
154.8,0.0,142.8,193.3,9.1,1047.4,696.7,28,12.46
237.5,237.5,0.0,228.0,0.0,932.0,594.0,7,26.26
166.1,0.0,163.3,176.5,4.5,1058.6,780.1,100,33.54
200.0,0.0,0.0,180.0,0.0,1125.0,845.0,7,7.84
302.0,0.0,0.0,203.0,0.0,974.0,817.0,28,21.75
213.8,98.1,24.5,181.7,6.7,1066.0,785.5,56,47.13
491.0,26.0,123.0,210.0,3.9,882.0,699.0,3,25.61
212.1,0.0,121.6,180.3,5.7,1057.6,779.3,3,12.47
425.0,106.3,0.0,151.4,18.6,936.0,803.7,3,36.3
147.0,115.0,89.0,202.0,9.0,860.0,829.0,28,19.99
286.3,200.9,0.0,144.7,11.2,1004.6,803.7,91,76.8
359.0,19.0,141.0,154.0,10.9,942.0,801.0,28,62.94
251.8,0.0,99.9,146.1,12.4,1006.0,899.8,14,33.36
214.9,53.8,121.9,155.6,9.6,1014.3,780.6,56,53.96
297.2,0.0,117.5,174.8,9.5,1022.8,753.5,3,21.91
318.8,212.5,0.0,155.7,14.3,852.1,880.4,28,55.5
310.0,0.0,0.0,192.0,0.0,1012.0,830.0,7,17.24
491.0,26.0,123.0,210.0,3.9,882.0,699.0,56,59.59
500.0,0.0,0.0,200.0,0.0,1125.0,613.0,1,12.64
302.0,0.0,0.0,203.0,0.0,974.0,817.0,180,26.74
236.0,0.0,0.0,193.0,0.0,968.0,885.0,180,24.1
182.0,45.2,122.0,170.2,8.2,1059.4,780.7,28,31.27
233.8,0.0,94.6,197.9,4.6,947.0,852.2,3,10.38
332.5,142.5,0.0,228.0,0.0,932.0,594.0,180,39.78
450.1,50.0,0.0,200.0,3.0,1124.4,613.2,28,39.38
220.8,147.2,0.0,185.7,0.0,1055.0,744.3,28,25.75
339.0,0.0,0.0,197.0,0.0,968.0,781.0,7,20.97
427.5,47.5,0.0,228.0,0.0,932.0,594.0,270,43.01
190.0,190.0,0.0,228.0,0.0,932.0,670.0,90,42.33
236.0,157.0,0.0,192.0,0.0,972.6,749.1,7,20.42
181.4,0.0,167.0,169.6,7.6,1055.6,777.8,56,35.57
210.7,316.1,0.0,185.7,0.0,977.0,689.3,7,21.82
153.0,145.0,113.0,178.0,8.0,867.0,824.0,28,26.23
375.0,93.8,0.0,126.6,23.4,852.1,992.6,56,60.2