Folder: DataAnalyticsOR/Assignment1/163190013_Assignment1/Regression Code

Note: Readme.txt
Folder for Data Analytics for OR course. Contains assignments and project.

File: Regression_TEST.csv
Cement (component 1)(kg in a m^3 mixture),Blast Furnace Slag (component 2)(kg in a m^3 mixture),Fly Ash (component 3)(kg in a m^3 mixture),Water  (component 4)(kg in a m^3 mixture),Superplasticizer (component 5)(kg in a m^3 mixture),Coarse Aggregate  (component 6)(kg in a m^3 mixture),Fine Aggregate (component 7)(kg in a m^3 mixture),Age (day),"Concrete compressive strength(MPa, megapascals) "
525.0,0.0,0.0,189.0,0.0,1125.0,613.0,90,58.78
182.0,45.2,122.0,170.2,8.2,1059.4,780.7,56,43.5
288.0,121.0,0.0,177.0,7.0,908.0,829.0,28,42.13
173.0,116.0,0.0,192.0,0.0,946.8,856.8,90,32.1
331.0,0.0,0.0,192.0,0.0,978.0,825.0,180,39.0
146.5,114.6,89.3,201.9,8.8,860.0,829.5,28,19.99
297.2,0.0,117.5,174.8,9.5,1022.8,753.5,100,56.74
213.7,98.1,24.5,181.7,6.9,1065.8,785.4,3,18.0
260.0,101.0,78.0,171.0,10.0,936.0,763.0,28,49.77
136.0,162.0,126.0,172.0,10.0,923.0,764.0,28,29.07
108.3,162.4,0.0,203.5,0.0,938.2,849.0,90,29.23
491.0,26.0,123.0,210.0,3.9,882.0,699.0,7,33.49
277.0,0.0,0.0,191.0,0.0,968.0,856.0,360,33.7
382.0,0.0,0.0,185.0,0.0,1047.0,739.0,7,24.0
385.0,0.0,0.0,186.0,0.0,966.0,763.0,3,14.7
150.0,237.0,0.0,174.0,12.0,1069.0,675.0,28,37.43
198.6,132.4,0.0,192.0,0.0,978.4,825.5,7,14.64
212.6,0.0,100.4,159.4,10.4,1003.8,903.8,100,47.74
342.0,38.0,0.0,228.0,0.0,932.0,670.0,180,52.12
331.0,0.0,0.0,192.0,0.0,1025.0,821.0,3,14.31
237.5,237.5,0.0,228.0,0.0,932.0,594.0,28,30.08
136.0,196.0,98.0,199.0,6.0,847.0,783.0,28,26.97
233.8,0.0,94.6,197.9,4.6,947.0,852.2,14,22.14
307.0,0.0,0.0,193.0,0.0,968.0,812.0,180,34.49
153.1,145.0,113.0,178.5,8.0,1001.9,688.7,28,25.56
173.8,93.4,159.9,172.3,9.7,1007.2,746.6,28,37.81
337.9,189.0,0.0,174.9,9.5,944.7,755.8,3,24.1
144.0,170.0,133.0,192.0,8.0,814.0,805.0,28,29.87
212.6,0.0,100.4,159.4,10.4,1003.8,903.8,28,37.4
298.0,0.0,107.0,186.0,6.0,879.0,815.0,28,42.64
250.0,0.0,95.7,187.4,5.5,956.9,861.2,100,42.35
531.3,0.0,0.0,141.8,28.2,852.1,893.7,56,58.8
359.0,19.0,141.0,154.0,10.9,942.0,801.0,56,66.78
116.0,173.0,0.0,192.0,0.0,909.8,891.9,90,31.02
190.3,0.0,125.2,166.6,9.9,1079.0,798.9,100,33.56
528.0,0.0,0.0,185.0,6.9,920.0,720.0,28,56.83
313.0,145.0,0.0,178.0,8.0,1002.0,689.0,28,41.05
380.0,0.0,0.0,228.0,0.0,932.0,670.0,270,53.3
289.0,133.7,0.0,194.9,5.5,924.1,760.1,28,46.25
198.6,132.4,0.0,192.0,0.0,978.4,825.5,3,9.13
236.0,0.0,0.0,193.0,0.0,968.0,885.0,365,25.08
397.0,0.0,0.0,185.0,0.0,1040.0,734.0,28,39.09
122.6,183.9,0.0,203.5,0.0,958.2,800.1,3,3.32
198.6,132.4,0.0,192.0,0.0,978.4,825.5,90,38.07
149.0,117.6,91.7,182.9,7.1,953.4,780.3,28,23.52
505.0,0.0,60.0,195.0,0.0,1030.0,630.0,28,64.02
238.0,0.0,0.0,186.0,0.0,1119.0,789.0,28,17.54
203.5,305.3,0.0,203.5,0.0,963.4,630.0,90,51.86
251.4,0.0,118.3,188.5,5.8,1028.4,757.7,28,29.65
164.0,0.0,200.0,181.0,13.0,849.0,846.0,28,15.09
475.0,0.0,59.0,142.0,1.9,1098.0,641.0,28,57.23
387.0,20.0,94.0,157.0,11.6,938.0,845.0,28,46.68
273.0,105.0,82.0,210.0,9.0,904.0,680.0,28,37.17
220.8,147.2,0.0,185.7,0.0,1055.0,744.3,7,13.09
213.8,98.1,24.5,181.7,6.7,1066.0,785.5,100,49.97
212.6,0.0,100.4,159.4,10.4,1003.8,903.8,14,25.37
326.0,0.0,138.0,199.0,11.0,801.0,792.0,28,40.68
397.0,0.0,0.0,185.7,0.0,1040.6,734.3,28,33.08
277.1,0.0,97.4,160.6,11.8,973.9,875.6,100,55.64
323.7,282.8,0.0,183.8,10.3,942.7,659.9,7,49.8
165.0,128.5,132.1,175.1,8.1,1005.8,746.6,56,53.72
382.0,0.0,0.0,186.0,0.0,1047.0,739.0,7,24.0
331.0,0.0,0.0,192.0,0.0,1025.0,821.0,90,37.91
141.3,212.0,0.0,203.5,0.0,971.8,748.5,3,4.83
275.1,0.0,121.4,159.5,9.9,1053.6,777.5,56,56.85
148.0,0.0,137.0,158.0,16.0,1002.0,830.0,28,17.95
296.0,0.0,0.0,192.0,0.0,1085.0,765.0,7,14.2
275.0,180.0,120.0,162.0,10.4,830.0,765.0,28,76.24
239.6,359.4,0.0,185.7,0.0,941.6,664.3,7,25.42
350.0,0.0,0.0,203.0,0.0,974.0,775.0,28,27.34
277.0,0.0,0.0,191.0,0.0,968.0,856.0,180,32.33
250.0,0.0,95.7,191.8,5.3,948.9,857.2,56,39.64
135.0,0.0,166.0,180.0,10.0,961.0,805.0,28,13.29
425.0,106.3,0.0,153.5,16.5,852.1,887.1,28,60.29
116.0,173.0,0.0,192.0,0.0,909.8,891.9,28,22.35
246.8,0.0,125.1,143.3,12.0,1086.8,800.9,100,66.42
359.0,19.0,141.0,154.0,10.9,942.0,801.0,7,35.75
145.0,0.0,134.0,181.0,11.0,979.0,812.0,28,13.2
165.0,128.5,132.1,175.1,8.1,1005.8,746.6,100,55.02
229.7,0.0,118.2,195.2,6.1,1028.1,757.6,14,22.32
500.0,0.0,0.0,200.0,0.0,1125.0,613.0,180,51.04
133.0,200.0,0.0,192.0,0.0,927.4,839.2,28,27.87
167.4,129.9,128.6,175.5,7.8,1006.3,746.6,14,31.81
277.0,116.8,91.0,190.6,7.0,946.5,665.6,28,43.58
184.0,86.0,190.0,213.0,6.0,923.0,623.0,28,22.93
290.2,193.5,0.0,185.7,0.0,998.2,704.3,7,21.86
237.5,237.5,0.0,228.0,0.0,932.0,594.0,90,33.12
148.5,139.4,108.6,192.7,6.1,892.4,780.0,28,23.7
326.5,0.0,137.9,199.0,10.8,801.1,792.5,28,38.63
362.6,189.0,0.0,164.9,11.6,944.7,755.8,91,79.3
168.0,42.1,163.8,121.8,5.7,1058.7,780.1,56,32.85
153.0,102.0,0.0,192.0,0.0,888.0,943.1,7,8.37
362.6,189.0,0.0,164.9,11.6,944.7,755.8,28,71.3
389.9,189.0,0.0,145.9,22.0,944.7,755.8,56,79.4
218.2,54.6,123.8,140.8,11.9,1075.7,792.7,28,55.51
376.0,0.0,0.0,214.6,0.0,1003.5,762.4,56,36.3
254.0,0.0,0.0,198.0,0.0,968.0,863.0,3,9.31
249.1,0.0,98.8,158.1,12.8,987.8,889.0,100,51.06
316.1,210.7,0.0,185.7,0.0,977.0,689.3,7,24.44
337.9,189.0,0.0,174.9,9.5,944.7,755.8,7,35.1
350.0,0.0,0.0,203.0,0.0,974.0,775.0,14,22.53
316.1,210.7,0.0,185.7,0.0,977.0,689.3,28,38.7
261.9,110.5,86.1,195.4,5.0,895.2,732.6,28,33.72
387.0,20.0,94.0,157.0,14.3,938.0,845.0,7,36.84
321.0,0.0,128.0,182.0,11.0,870.0,780.0,28,37.26
134.7,0.0,165.7,180.2,10.0,961.0,804.9,28,13.29
155.2,183.9,143.2,193.8,9.2,879.6,698.5,28,28.99
252.0,0.0,0.0,186.0,0.0,1111.0,784.0,7,11.47
290.4,0.0,96.2,168.1,9.4,961.2,865.0,28,34.74
425.0,106.3,0.0,153.5,16.5,852.1,887.1,56,64.3
231.8,0.0,121.6,174.0,6.7,1056.4,778.5,3,15.44
401.8,94.7,0.0,147.4,11.4,946.8,852.1,28,68.5
318.0,0.0,126.0,210.0,6.0,861.0,737.0,28,40.06
251.4,0.0,118.3,188.5,6.4,1028.4,757.7,14,24.43
289.0,0.0,0.0,192.0,0.0,913.2,895.3,90,32.07
173.5,50.1,173.5,164.8,6.5,1006.2,793.5,3,23.08
321.3,164.2,0.0,190.5,4.6,870.0,774.0,28,57.22
382.0,0.0,0.0,186.0,0.0,1047.0,739.0,28,37.42
350.0,0.0,0.0,186.0,0.0,1050.0,770.0,7,20.28
313.3,262.2,0.0,175.5,8.6,1046.9,611.8,3,28.8
334.0,17.6,158.0,189.0,15.3,967.0,633.0,28,44.33
469.0,117.2,0.0,137.8,32.2,852.1,840.5,56,69.3
424.0,22.0,132.0,168.0,8.9,822.0,750.0,28,72.1
362.6,189.0,0.0,164.9,11.6,944.7,755.8,91,79.3
108.3,162.4,0.0,203.5,0.0,938.2,849.0,28,20.59
251.4,0.0,118.3,192.9,5.8,1043.6,754.3,3,11.98
250.2,166.8,0.0,203.5,0.0,977.6,694.1,90,47.71
212.5,0.0,100.4,159.3,8.7,1007.8,903.6,56,42.55
425.0,106.3,0.0,153.5,16.5,852.1,887.1,7,49.2
401.8,94.7,0.0,147.4,11.4,946.8,852.1,56,73.7
190.7,0.0,125.4,162.1,7.8,1090.0,804.0,56,35.34
202.0,11.0,141.0,206.0,1.7,942.0,801.0,3,9.85
295.7,0.0,95.6,171.5,8.9,955.1,859.2,56,48.72
387.0,20.0,94.0,157.0,14.3,938.0,845.0,3,22.75
332.5,142.5,0.0,228.0,0.0,932.0,594.0,28,33.02
475.0,118.8,0.0,181.1,8.9,852.1,781.5,28,68.3
233.8,0.0,94.6,197.9,4.6,947.0,852.2,100,34.56
355.0,19.0,97.0,145.0,12.3,967.0,871.0,28,55.45
375.0,93.8,0.0,126.6,23.4,852.1,992.6,28,56.7
362.6,189.0,0.0,164.9,11.6,944.7,755.8,7,55.9
277.0,117.0,91.0,191.0,7.0,946.0,666.0,28,43.57
427.5,47.5,0.0,228.0,0.0,932.0,594.0,365,43.7
400.0,0.0,0.0,187.0,0.0,1025.0,745.0,7,30.14
339.0,0.0,0.0,185.0,0.0,1069.0,754.0,7,21.16
317.9,0.0,126.5,209.7,5.7,860.5,736.6,28,40.06
362.6,189.0,0.0,164.9,11.6,944.7,755.8,56,77.3
310.0,142.8,0.0,167.9,10.0,914.3,804.0,28,45.3
236.0,157.0,0.0,192.0,0.0,972.6,749.1,3,13.57
194.7,0.0,100.5,170.2,7.5,998.0,901.8,14,24.28
387.0,20.0,94.0,157.0,11.6,938.0,845.0,3,34.77
135.7,203.5,0.0,185.7,0.0,1076.2,759.3,7,7.51
231.8,0.0,121.6,174.0,6.7,1056.4,778.5,56,42.7
238.2,158.8,0.0,185.7,0.0,1040.6,734.3,7,15.69
213.7,98.1,24.5,181.7,6.9,1065.8,785.4,56,50.77
298.0,0.0,107.0,210.0,11.0,880.0,744.0,28,31.87